study_word,test,reference,old_new,trials.thisRepN,trials.thisTrialN,trials.thisN,trials.thisIndex,trials_2.thisRepN,trials_2.thisTrialN,trials_2.thisN,trials_2.thisIndex,thisRow.t,notes,trial.started,text.started,slider.started,trial.stopped,slider.response,slider.rt,testr.started,text_2.started,textbox.started,text_3.started,mouse.started,testr.stopped,textbox.text,mouse.x,mouse.y,mouse.leftButton,mouse.midButton,mouse.rightButton,mouse.time,mouse.clicked_name,text_2.stopped,textbox.stopped,text_3.stopped,mouse.stopped,participant,session,date,expName,psychopyVersion,frameRate,expStart,
pastry,,,,0,0,0,9,,,,,0.03522399999201298,,0.007351799984462559,0.03522399999201298,0.03522399999201298,1.395102099981159,1.8888888888888888,1.3655197999905795,,,,,,,,,,,,,,,,,,,527259,001,2024-11-07_21h06.03.949,word priming,2024.1.5,None,2024-11-07 21h06.11.156909 +0530,
marble,,,,0,1,1,3,,,,,1.4129359000362456,,1.3983640000224113,1.4129359000362456,1.4129359000362456,2.0948195999953896,2.188888888888889,0.6759917000308633,,,,,,,,,,,,,,,,,,,527259,001,2024-11-07_21h06.03.949,word priming,2024.1.5,None,2024-11-07 21h06.11.156909 +0530,
mouse,,,,0,2,2,8,,,,,2.109287300030701,,2.095001699985005,2.109287300030701,2.109287300030701,2.794714199961163,2.488888888888889,0.680510799982585,,,,,,,,,,,,,,,,,,,527259,001,2024-11-07_21h06.03.949,word priming,2024.1.5,None,2024-11-07 21h06.11.156909 +0530,
police,,,,0,3,3,12,,,,,2.809451699955389,,2.794899999978952,2.809451699955389,2.809451699955389,3.428401199984364,2.937037037037037,0.613730699988082,,,,,,,,,,,,,,,,,,,527259,001,2024-11-07_21h06.03.949,word priming,2024.1.5,None,2024-11-07 21h06.11.156909 +0530,
cushion,,,,0,4,4,1,,,,,3.4426463999552652,,3.428594999946654,3.4426463999552652,3.4426463999552652,4.095249900012277,3.4074074074074074,0.6459843000629917,,,,,,,,,,,,,,,,,,,527259,001,2024-11-07_21h06.03.949,word priming,2024.1.5,None,2024-11-07 21h06.11.156909 +0530,
poster,,,,0,5,5,14,,,,,4.109433799982071,,4.0954704999458045,4.109433799982071,4.109433799982071,4.761377400020137,3.640740740740741,0.6458517999853939,,,,,,,,,,,,,,,,,,,527259,001,2024-11-07_21h06.03.949,word priming,2024.1.5,None,2024-11-07 21h06.11.156909 +0530,
T-shirt,,,,0,6,6,7,,,,,4.776391900028102,,4.761574900010601,4.776391900028102,4.776391900028102,5.5951491999439895,3.1666666666666665,0.8133710999973118,,,,,,,,,,,,,,,,,,,527259,001,2024-11-07_21h06.03.949,word priming,2024.1.5,None,2024-11-07 21h06.11.156909 +0530,
keys,,,,0,7,7,13,,,,,5.609589400002733,,5.595337499980815,5.609589400002733,5.609589400002733,6.128806099994108,2.5555555555555554,0.5144241999369115,,,,,,,,,,,,,,,,,,,527259,001,2024-11-07_21h06.03.949,word priming,2024.1.5,None,2024-11-07 21h06.11.156909 +0530,
board,,,,0,8,8,4,,,,,6.142642599996179,,6.128981799934991,6.142642599996179,6.142642599996179,6.695164300035685,2.1444444444444444,0.5466589999850839,,,,,,,,,,,,,,,,,,,527259,001,2024-11-07_21h06.03.949,word priming,2024.1.5,None,2024-11-07 21h06.11.156909 +0530,
book,,,,0,9,9,0,,,,,6.70964090002235,,6.695366199943237,6.70964090002235,6.70964090002235,7.245359699940309,1.6703703703703703,0.529814500012435,,,,,,,,,,,,,,,,,,,527259,001,2024-11-07_21h06.03.949,word priming,2024.1.5,None,2024-11-07 21h06.11.156909 +0530,
laptop,,,,0,10,10,5,,,,,7.259568999987096,,7.2455428999383,7.259568999987096,7.259568999987096,7.828325100010261,2.5444444444444443,0.5627473000204191,,,,,,,,,,,,,,,,,,,527259,001,2024-11-07_21h06.03.949,word priming,2024.1.5,None,2024-11-07 21h06.11.156909 +0530,
case,,,,0,11,11,10,,,,,7.842845999985002,,7.828502199961804,7.842845999985002,7.842845999985002,8.328538900008425,3.251851851851852,0.4800344000104815,,,,,,,,,,,,,,,,,,,527259,001,2024-11-07_21h06.03.949,word priming,2024.1.5,None,2024-11-07 21h06.11.156909 +0530,
cruise,,,,0,12,12,11,,,,,8.342922999989241,,8.328763399971649,8.342922999989241,8.342922999989241,8.861510599963367,3.7666666666666666,0.5128381999675184,,,,,,,,,,,,,,,,,,,527259,001,2024-11-07_21h06.03.949,word priming,2024.1.5,None,2024-11-07 21h06.11.156909 +0530,
chart,,,,0,13,13,6,,,,,8.87638439994771,,8.86170669994317,8.87638439994771,8.87638439994771,9.711598900030367,4.107407407407408,0.8312891999958083,,,,,,,,,,,,,,,,,,,527259,001,2024-11-07_21h06.03.949,word priming,2024.1.5,None,2024-11-07 21h06.11.156909 +0530,
phone,,,,0,14,14,2,,,,,9.726410900009796,,9.711783000035211,9.726410900009796,9.726410900009796,10.49503019999247,4.196296296296296,0.7645600000396371,,,,,,,,,,,,,,,,,,,527259,001,2024-11-07_21h06.03.949,word priming,2024.1.5,None,2024-11-07 21h06.11.156909 +0530,
,v_s_,vase,new,,,,,0,0,0,17,10.509608599939384,,,,,,,,10.499682200024836,10.509608599939384,10.509608599939384,10.509608599939384,0.007191300042904913,13.996839400031604,vase,[0.023148148148148147],[-0.3],[1],[0],[0],[3.4939185000257567],['text_3'],,,,,527259,001,2024-11-07_21h06.03.949,word priming,2024.1.5,None,2024-11-07 21h06.11.156909 +0530,
,p_on_,phone,old,,,,,0,1,1,2,14.010051499935798,,,,,,,,13.997526100021787,14.010051499935798,14.010051499935798,14.010051499935798,0.001699300017207861,17.060785899986513,phone,[0.024074074074074074],[-0.29907407407407405],[1],[0],[0],[3.061124400002882],['text_3'],,,,,527259,001,2024-11-07_21h06.03.949,word priming,2024.1.5,None,2024-11-07 21h06.11.156909 +0530,
,t-_hir_,t-shirt,old,,,,,0,2,2,7,17.07666529994458,,,,,,,,17.061326500028372,17.07666529994458,17.07666529994458,17.07666529994458,0.00198079994879663,21.844566199928522,t-shirt,[-0.019444444444444445],[-0.30277777777777776],[1],[0],[0],[4.78084509994369],['text_3'],,,,,527259,001,2024-11-07_21h06.03.949,word priming,2024.1.5,None,2024-11-07 21h06.11.156909 +0530,
,cr_i_e,cruise,old,,,,,0,3,3,11,21.860186100006104,,,,,,,,21.84498569997959,21.860186100006104,21.860186100006104,21.860186100006104,0.0018629999831318855,24.81268440000713,crusie,[-0.019444444444444445],[-0.30277777777777776],[1],[0],[0],[2.965262799989432],['text_3'],,,,,527259,001,2024-11-07_21h06.03.949,word priming,2024.1.5,None,2024-11-07 21h06.11.156909 +0530,
,po_s_r,poster,old,,,,,0,4,4,14,24.827016299939714,,,,,,,,24.813272399944253,24.827016299939714,24.827016299939714,24.827016299939714,0.0021678999764844775,27.763025299995206,poster,[-0.019444444444444445],[-0.30277777777777776],[1],[0],[0],[2.946979200001806],['text_3'],,,,,527259,001,2024-11-07_21h06.03.949,word priming,2024.1.5,None,2024-11-07 21h06.11.156909 +0530,
,_ar__e,marble,old,,,,,0,5,5,3,27.77689239999745,,,,,,,,27.76362440001685,27.77689239999745,27.77689239999745,27.77689239999745,0.0021485999459400773,37.76198499999009,bar,[],[],[],[],[],[],[],37.77747750002891,37.77747750002891,37.77747750002891,9.997316799941473,527259,001,2024-11-07_21h06.03.949,word priming,2024.1.5,None,2024-11-07 21h06.11.156909 +0530,
,c_a_t,chart,old,,,,,0,6,6,6,37.77747750002891,,,,,,,,37.76288719999138,37.77747750002891,37.77747750002891,37.77747750002891,0.0024112999672070146,41.628511199960485,chart,[-0.019444444444444445],[-0.30277777777777776],[1],[0],[0],[3.8619735999964178],['text_3'],,,,,527259,001,2024-11-07_21h06.03.949,word priming,2024.1.5,None,2024-11-07 21h06.11.156909 +0530,
,_oo_,book,old,,,,,0,7,7,0,41.64382370002568,,,,,,,,41.62908540002536,41.64382370002568,41.64382370002568,41.64382370002568,0.0023640000727027655,44.61281770002097,book,[-0.03611111111111111],[-0.30092592592592593],[1],[0],[0],[2.9807881000451744],['text_3'],,,,,527259,001,2024-11-07_21h06.03.949,word priming,2024.1.5,None,2024-11-07 21h06.11.156909 +0530,
,p_nc_l,pencil,new,,,,,0,8,8,16,44.62749909993727,,,,,,,,44.61331379995681,44.62749909993727,44.62749909993727,44.62749909993727,0.0021397999953478575,48.263693999964744,pencil,[-0.04814814814814815],[-0.30648148148148147],[1],[0],[0],[3.6477542999200523],['text_3'],,,,,527259,001,2024-11-07_21h06.03.949,word priming,2024.1.5,None,2024-11-07 21h06.11.156909 +0530,
,c_sh_o_,cushion,old,,,,,0,9,9,1,48.277573599945754,,,,,,,,48.26415960001759,48.277573599945754,48.277573599945754,48.277573599945754,0.0023896999191492796,52.13057070004288,cushion,[-0.05462962962962963],[-0.2972222222222222],[1],[0],[0],[3.863547999993898],['text_3'],,,,,527259,001,2024-11-07_21h06.03.949,word priming,2024.1.5,None,2024-11-07 21h06.11.156909 +0530,
,b_ar_,board,old,,,,,0,10,10,4,52.1444437999744,,,,,,,,52.131038499996066,52.1444437999744,52.1444437999744,52.1444437999744,0.0018199000041931868,62.12907869997434,ba,[],[],[],[],[],[],[],62.14469470002223,62.14469470002223,62.14469470002223,9.997326100012287,527259,001,2024-11-07_21h06.03.949,word priming,2024.1.5,None,2024-11-07 21h06.11.156909 +0530,
,_a_t_p,laptop,old,,,,,0,11,11,5,62.14469470002223,,,,,,,,62.12993249995634,62.14469470002223,62.14469470002223,62.14469470002223,0.002347299945540726,65.61236599995755,laptop,[-0.01574074074074074],[-0.3138888888888889],[1],[0],[0],[3.478391799959354],['text_3'],,,,,527259,001,2024-11-07_21h06.03.949,word priming,2024.1.5,None,2024-11-07 21h06.11.156909 +0530,
,k_ys,keys,old,,,,,0,12,12,13,65.62818859994877,,,,,,,,65.61291549995076,65.62818859994877,65.62818859994877,65.62818859994877,0.0018085999181494117,68.29655620001722,keys,[-0.020370370370370372],[-0.29814814814814816],[1],[0],[0],[2.681447000009939],['text_3'],,,,,527259,001,2024-11-07_21h06.03.949,word priming,2024.1.5,None,2024-11-07 21h06.11.156909 +0530,
,_o_ic_,police,old,,,,,0,13,13,12,68.31178330001421,,,,,,,,68.29696740000509,68.31178330001421,68.31178330001421,68.31178330001421,0.0018363000126555562,75.54824559995905,police,[-0.03425925925925926],[-0.2972222222222222],[1],[0],[0],[7.248865199973807],['text_3'],,,,,527259,001,2024-11-07_21h06.03.949,word priming,2024.1.5,None,2024-11-07 21h06.11.156909 +0530,
,_as_r_,pastry,old,,,,,0,14,14,9,75.56179940002039,,,,,,,,75.54879329993855,75.56179940002039,75.56179940002039,75.56179940002039,0.0023444999242201447,78.91474989999551,pastry,[0.009259259259259259],[-0.29444444444444445],[1],[0],[0],[3.3629240998998284],['text_3'],,,,,527259,001,2024-11-07_21h06.03.949,word priming,2024.1.5,None,2024-11-07 21h06.11.156909 +0530,
,ta_l_,table,new,,,,,0,15,15,15,78.92858970002271,,,,,,,,78.91534930001944,78.92858970002271,78.92858970002271,78.92858970002271,0.002285800059325993,86.21505500003695,table,[0.005555555555555556],[-0.29814814814814816],[1],[0],[0],[7.296862000017427],['text_3'],,,,,527259,001,2024-11-07_21h06.03.949,word priming,2024.1.5,None,2024-11-07 21h06.11.156909 +0530,
,c_s_,case,old,,,,,0,16,16,10,86.22887099999934,,,,,,,,86.21560899994802,86.22887099999934,86.22887099999934,86.22887099999934,0.0021539999870583415,89.49852529994678,case,[-0.026851851851851852],[-0.3],[1],[0],[0],[3.280202400055714],['text_3'],,,,,527259,001,2024-11-07_21h06.03.949,word priming,2024.1.5,None,2024-11-07 21h06.11.156909 +0530,
,m_u_e,mouse,old,,,,,0,17,17,8,89.51237090001814,,,,,,,,89.49905370001215,89.51237090001814,89.51237090001814,89.51237090001814,0.002060099970549345,92.74654069996905,mouse,[-0.026851851851851852],[-0.3],[1],[0],[0],[3.244880100013688],['text_3'],,,,,527259,001,2024-11-07_21h06.03.949,word priming,2024.1.5,None,2024-11-07 21h06.11.156909 +0530,
,bo_t_e,bottle,new,,,,,0,18,18,18,92.76235019997694,,,,,,,,92.74708979995921,92.76235019997694,92.76235019997694,92.76235019997694,0.002292599994689226,95.71534679993056,bottle,[-0.025],[-0.30277777777777776],[1],[0],[0],[2.9653762000380084],['text_3'],,,,,527259,001,2024-11-07_21h06.03.949,word priming,2024.1.5,None,2024-11-07 21h06.11.156909 +0530,
,c_m_ra,camera,new,,,,,0,19,19,19,95.728978500003,,,,,,,,95.71586669993121,95.728978500003,95.728978500003,95.728978500003,0.0019846000941470265,99.19708439998794,camera,[-0.023148148148148147],[-0.3037037037037037],[1],[0],[0],[3.4785359000088647],['text_3'],,,,,527259,001,2024-11-07_21h06.03.949,word priming,2024.1.5,None,2024-11-07 21h06.11.156909 +0530,
